# Target Z    :  13
# Target A    :  27
# Target state:  
# Projectile  : p
# Reaction    : (p,x)
# Final Z     :  11
# Final A     :  24
# Final state : *
# Quantity    : Cross section
# Frame       : L
# MF          :    3
# MT          :  998
# X4 ID       : O0284017 
# X4 code     : 13-AL-27(P,X)11-NA-24,CUM,SIG
# Author      : Schiekel                 
# Year        : 1996
# Data points :     84
#    E(MeV)       xs(mb)      dxs(mb)     dE(MeV)      Evaluation  C/E(F)      Chi-2     Delta(mb)
  2.11000E+02  8.59000E+00  7.07000E-01  1.63000E+00  6.23458E+00  0.7258       11.10       2.355              
  2.12000E+02  9.11000E+00  7.45000E-01  1.62000E+00  6.24259E+00  0.6852       14.81       2.867              
  2.14000E+02  9.33000E+00  8.06000E-01  1.61000E+00  6.25860E+00  0.6708       14.52       3.071              
  2.15000E+02  9.25000E+00  7.52000E-01  1.60000E+00  6.26660E+00  0.6775       15.74       2.983              
  2.17000E+02  9.30000E+00  7.66000E-01  1.58000E+00  6.28261E+00  0.6755       15.52       3.017              
  2.21000E+02  9.56000E+00  7.71000E-01  1.55000E+00  6.30915E+00  0.6600       17.78       3.251              
  2.22000E+02  8.88000E+00  7.65000E-01  1.54000E+00  6.31167E+00  0.7108       11.27       2.568              
  2.23000E+02  9.31000E+00  7.89000E-01  1.53000E+00  6.31418E+00  0.6782       14.42       2.996              
  2.23000E+02  8.92000E+00  7.84000E-01  1.53000E+00  6.31418E+00  0.7079       11.05       2.606              
  2.25000E+02  8.51000E+00  7.07000E-01  1.51000E+00  6.31922E+00  0.7426       9.602       2.191              
  2.28000E+02  8.73000E+00  7.27000E-01  1.49000E+00  6.32677E+00  0.7247       10.93       2.403              
  2.31000E+02  9.37000E+00  8.18000E-01  1.46000E+00  6.33432E+00  0.6760       13.77       3.036              
  2.34000E+02  1.00000E+01  8.31000E-01  1.43000E+00  6.34188E+00  0.6342       19.38       3.658              
  2.37000E+02  9.22000E+00  7.21000E-01  1.40000E+00  6.34943E+00  0.6887       15.85       2.871              
  2.40000E+02  9.42000E+00  7.40000E-01  1.38000E+00  6.35698E+00  0.6748       17.13       3.063              
  2.42000E+02  9.03000E+00  7.59000E-01  1.36000E+00  6.36692E+00  0.7051       12.31       2.663              
  2.43000E+02  9.65000E+00  7.39000E-01  1.35000E+00  6.37189E+00  0.6603       19.68       3.278              
  2.47000E+02  9.76000E+00  7.20000E-01  1.32000E+00  6.39177E+00  0.6549       21.88       3.368              
  2.53000E+02  1.01000E+01  7.30000E-01  1.25000E+00  6.42158E+00  0.6358       25.39       3.678              
  2.55000E+02  1.01000E+01  7.58000E-01  1.24000E+00  6.43152E+00  0.6368       23.42       3.668              
  2.56000E+02  9.88000E+00  7.10000E-01  1.22000E+00  6.43649E+00  0.6515       23.52       3.444              
  2.56000E+02  9.74000E+00  5.46000E-01  1.30000E+00  6.43649E+00  0.6608       36.61       3.304              
  2.57000E+02  9.71000E+00  7.95000E-01  1.22000E+00  6.44146E+00  0.6634       16.90       3.269              
  2.60000E+02  9.77000E+00  8.01000E-01  1.18000E+00  6.45637E+00  0.6608       17.11       3.314              
  2.63000E+02  9.88000E+00  7.90000E-01  1.14000E+00  6.45205E+00  0.6530       18.83       3.428              
  2.67000E+02  1.05000E+01  8.58000E-01  1.09000E+00  6.44630E+00  0.6139       22.32       4.054              
  2.68000E+02  9.79000E+00  8.40000E-01  1.08000E+00  6.44486E+00  0.6583       15.86       3.345              
  2.73000E+02  9.48000E+00  7.92000E-01  1.01000E+00  6.43767E+00  0.6791       14.76       3.042              
  2.78000E+02  9.85000E+00  8.04000E-01  9.27000E-01  6.43048E+00  0.6528       18.09       3.420              
  2.83000E+02  1.10000E+01  8.46000E-01  8.50000E-01  6.44271E+00  0.5857       29.02       4.557              
  2.86000E+02  1.11000E+01  8.25000E-01  8.05000E-01  6.45782E+00  0.5818       31.66       4.642              
  2.92000E+02  1.07000E+01  8.16000E-01  6.88000E-01  6.48804E+00  0.6064       26.64       4.212              
  2.96000E+02  1.04000E+01  7.73000E-01  6.01000E-01  6.50818E+00  0.6258       25.35       3.892              
  2.97000E+02  1.05000E+01  5.86000E-01  6.19000E-01  6.51322E+00  0.6203       46.29       3.987              
  2.98000E+02  1.10000E+01  8.23000E-01  5.53000E-01  6.51826E+00  0.5926       29.65       4.482              
  2.98000E+02  1.12000E+01  6.28000E-01  6.14000E-01  6.51826E+00  0.5820       55.58       4.682              
  3.25000E+02  9.77000E+00  7.99000E-01  1.63000E+00  6.49554E+00  0.6648       16.80       3.274              
  3.26000E+02  1.01000E+01  8.52000E-01  1.62000E+00  6.49423E+00  0.6430       17.91       3.606              
  3.28000E+02  9.97000E+00  8.23000E-01  1.61000E+00  6.49161E+00  0.6511       17.86       3.478              
  3.29000E+02  1.01000E+01  8.24000E-01  1.60000E+00  6.49030E+00  0.6426       19.19       3.610              
  3.30000E+02  9.98000E+00  1.17000E+00  1.58000E+00  6.48899E+00  0.6502       8.903       3.491              
  3.33000E+02  1.04000E+01  8.48000E-01  1.55000E+00  6.48505E+00  0.6236       21.31       3.915              
  3.34000E+02  9.87000E+00  8.15000E-01  1.54000E+00  6.48374E+00  0.6569       17.26       3.386              
  3.35000E+02  9.73000E+00  8.21000E-01  1.54000E+00  6.48243E+00  0.6662       15.65       3.248              
  3.35000E+02  1.05000E+01  8.72000E-01  1.53000E+00  6.48243E+00  0.6174       21.23       4.018              
  3.36000E+02  1.00000E+01  8.45000E-01  1.52000E+00  6.48112E+00  0.6481       17.34       3.519              
  3.39000E+02  9.50000E+00  7.90000E-01  1.49000E+00  6.47719E+00  0.6818       14.64       3.023              
  3.42000E+02  9.81000E+00  8.29000E-01  1.46000E+00  6.47325E+00  0.6599       16.20       3.337              
  3.44000E+02  9.98000E+00  8.07000E-01  1.43000E+00  6.47063E+00  0.6484       18.91       3.509              
  3.47000E+02  1.01000E+01  7.98000E-01  1.41000E+00  6.46669E+00  0.6403       20.73       3.633              
  3.49000E+02  1.02000E+01  7.87000E-01  1.38000E+00  6.46407E+00  0.6337       22.53       3.736              
  3.51000E+02  1.11000E+01  8.52000E-01  1.35000E+00  6.45887E+00  0.5819       29.67       4.641              
  3.51000E+02  1.06000E+01  8.22000E-01  1.36000E+00  6.45887E+00  0.6093       25.38       4.141              
  3.55000E+02  1.14000E+01  8.61000E-01  1.32000E+00  6.44333E+00  0.5652       33.14       4.957              
  3.57000E+02  1.07000E+01  7.90000E-01  1.29000E+00  6.43556E+00  0.6015       29.14       4.264              
  3.60000E+02  1.10000E+01  7.98000E-01  1.26000E+00  6.42390E+00  0.5840       32.88       4.576              
  3.61000E+02  1.08000E+01  7.88000E-01  1.24000E+00  6.42001E+00  0.5944       30.90       4.380              
  3.62000E+02  1.13000E+01  9.10000E-01  1.29000E+00  6.41613E+00  0.5678       28.80       4.884              
  3.62000E+02  1.14000E+01  8.17000E-01  1.22000E+00  6.41613E+00  0.5628       37.21       4.984              
  3.63000E+02  1.09000E+01  8.17000E-01  1.22000E+00  6.41224E+00  0.5883       30.17       4.488              
  3.63000E+02  1.02000E+01  8.35000E-01  1.22000E+00  6.41224E+00  0.6287       20.58       3.788              
  3.64000E+02  1.04000E+01  8.68000E-01  1.21000E+00  6.40835E+00  0.6162       21.15       3.992              
  3.65000E+02  1.05000E+01  8.66000E-01  1.19000E+00  6.40447E+00  0.6099       22.37       4.096              
  3.66000E+02  1.10000E+01  9.28000E-01  1.17000E+00  6.40058E+00  0.5819       24.56       4.599              
  3.68000E+02  1.06000E+01  8.78000E-01  1.15000E+00  6.39281E+00  0.6031       22.96       4.207              
  3.70000E+02  1.02000E+01  8.40000E-01  1.11000E+00  6.38504E+00  0.6260       20.63       3.815              
  3.71000E+02  1.06000E+01  8.70000E-01  1.10000E+00  6.38115E+00  0.6020       23.52       4.219              
  3.72000E+02  1.15000E+01  9.96000E-01  1.09000E+00  6.37726E+00  0.5545       26.45       5.123              
  3.72000E+02  1.05000E+01  8.94000E-01  1.08000E+00  6.37726E+00  0.6074       21.27       4.123              
  3.74000E+02  1.03000E+01  8.64000E-01  1.06000E+00  6.36949E+00  0.6184       20.70       3.931              
  3.76000E+02  9.64000E+00  8.14000E-01  1.02000E+00  6.36172E+00  0.6599       16.22       3.278              
  3.79000E+02  1.09000E+01  9.03000E-01  9.77000E-01  6.35006E+00  0.5826       25.39       4.550              
  3.81000E+02  1.03000E+01  8.57000E-01  9.32000E-01  6.34229E+00  0.6158       21.33       3.958              
  3.83000E+02  1.02000E+01  8.21000E-01  8.93000E-01  6.33452E+00  0.6210       22.17       3.865              
  3.85000E+02  1.06000E+01  8.36000E-01  8.51000E-01  6.32674E+00  0.5969       26.13       4.273              
  3.87000E+02  1.16000E+01  8.82000E-01  8.16000E-01  6.31897E+00  0.5447       35.85       5.281              
  3.88000E+02  1.10000E+01  8.22000E-01  8.04000E-01  6.31508E+00  0.5741       32.48       4.685              
  3.91000E+02  1.19000E+01  8.79000E-01  7.44000E-01  6.30343E+00  0.5297       40.54       5.597              
  3.93000E+02  1.12000E+01  8.25000E-01  6.86000E-01  6.29565E+00  0.5621       35.34       4.904              
  3.96000E+02  1.18000E+01  8.85000E-01  6.26000E-01  6.28399E+00  0.5325       38.85       5.516              
  3.97000E+02  1.07000E+01  7.85000E-01  6.00000E-01  6.28011E+00  0.5869       31.70       4.420              
  3.98000E+02  1.17000E+01  9.08000E-01  5.52000E-01  6.27622E+00  0.5364       35.68       5.424              
  3.98000E+02  1.13000E+01  8.53000E-01  5.61000E-01  6.27622E+00  0.5554       34.69       5.024              
  3.98000E+02  1.17000E+01  1.13000E+00  6.12000E-01  6.27622E+00  0.5364       23.04       5.424              
#
# Average deviation:                                                1.606       22.99       3.843    
#
# Full reference:
#Th.Schiekel,  F.Sudbrock,  U.Herpers,  M.Gloris, H.-J.Lange,  I.Leya,  R.Michel,  B.Dittrich-Hannen, H.-A.Synal,
# M.Suter,  P.W.Kubik,  M.Blann,  D.Filges
#Jour. Nucl. Instrum. Methods in Physics Res., Sect.B Vol.114, p.91, 1996
#Nuclide production by proton-induced reactions on elements (6<=Z<=296) in the energy range from 200 MeV to 400 MeV.
#
#
# Quality information:
#
# Quality  O0284017 : T1
# Date     O0284017 : 05-01-2018
# Reaction O0284017 : NP:   84 E-range:   211.    -   398.     MeV 13-AL-27(P,X)11-NA-24,CUM,SIG       pdf: y
# Paper    O0284017 : Th.Schiekel+ Jour. Nucl. Instrum. Methods in Physics Res., Sect.B Vol.114, p.91, 1996 Nuclide production by proton-induced reactions on elem
# Action   O0284017 : 
# Comment  O0284017 : Evaluation        N=    84 F=   1.61     chi-2=   23.0     D=   3.84     mb T=   6.40     mb E=   10.2     K1=  1.61     K2=  4.21
# Comment  O0284017 : TALYS             N=    84 F=   1.61     chi-2=   23.0     D=   3.84     mb T=   6.40     mb E=   10.2     K1=  1.61     K2=  4.21
# Comment  O0284017 : cendl3.1          N=     0 F=   0.00     chi-2=   0.00     D=   0.00     mb T=   0.00     mb E=   10.2     K1=  0.00     K2=  0.00
# Comment  O0284017 : eaf.2010          N=     0 F=   0.00     chi-2=   0.00     D=   0.00     mb T=   0.00     mb E=   10.2     K1=  0.00     K2=  0.00
# Comment  O0284017 : endfb8.0          N=     0 F=   0.00     chi-2=   0.00     D=   0.00     mb T=   0.00     mb E=   10.2     K1=  0.00     K2=  0.00
# Comment  O0284017 : irdff1.0          N=     0 F=   0.00     chi-2=   0.00     D=   0.00     mb T=   0.00     mb E=   10.2     K1=  0.00     K2=  0.00
# Comment  O0284017 : jeff3.3           N=     0 F=   0.00     chi-2=   0.00     D=   0.00     mb T=   0.00     mb E=   10.2     K1=  0.00     K2=  0.00
# Comment  O0284017 : jendl4.0          N=     0 F=   0.00     chi-2=   0.00     D=   0.00     mb T=   0.00     mb E=   10.2     K1=  0.00     K2=  0.00
# Comment  O0284017 : tendl.2017        N=     0 F=   0.00     chi-2=   0.00     D=   0.00     mb T=   0.00     mb E=   10.2     K1=  0.00     K2=  0.00
